Folder: PyChem_website/batch

Note: batch/batch.rst
Batch Processing NMR Plots
==========================

What you'll learn:

  * batch IR data
  * String indexing
  * For loops
  * Reading contents of a directory
  * Saving plots w/o interaction

Note: README.md
# PyChem Website

This is a small introductory website meant to get people up and running using
Python for scientific problems (specifically, chemistry related).

You can build this site yourself if you have Sphinx installed; however, it is
also being hosted on my personal site http://rcnelson.com

File: data_set3.txt
"125332 - C:\Documents and Settings\User\My Documents\Homogeneous-catalysis\Allen, Lucy\lka1079.008.spc"
"Wavelength nm.","Abs."
200.00,0.32446
203.00,0.27332
206.00,0.34338
209.00,0.40479
212.00,0.34058
215.00,0.30920
218.00,0.27380
221.00,0.29053
224.00,0.94153
227.00,1.04810
230.00,0.98511
233.00,0.88000
236.00,0.75732
239.00,0.64343
242.00,0.55750
245.00,0.48950
248.00,0.42383
251.00,0.35706
254.00,0.29590
257.00,0.25012
260.00,0.21704
263.00,0.19360
266.00,0.17566
269.00,0.15881
272.00,0.13965
275.00,0.11963
278.00,0.10046
281.00,0.08337
284.00,0.06934
287.00,0.05762
290.00,0.04773
293.00,0.03882
296.00,0.03101
299.00,0.05347
302.00,0.06860
305.00,0.06177
308.00,0.05457
311.00,0.04797
314.00,0.04211
317.00,0.03711
320.00,0.03345
323.00,0.03101
326.00,0.02893
329.00,0.02710
332.00,0.02539
335.00,0.02356
338.00,0.02148
341.00,0.01855
344.00,0.01587
347.00,0.01355
350.00,0.01160
353.00,0.00952
356.00,0.00781
359.00,0.00647
362.00,0.00549
365.00,0.00488
368.00,0.00464
371.00,0.00427
374.00,0.00403
377.00,0.00391
380.00,0.00366
383.00,0.00354
386.00,0.00342
389.00,0.00342
392.00,0.00342
395.00,0.00342
398.00,0.00342
401.00,0.00342
404.00,0.00342
407.00,0.00342
410.00,0.00342
413.00,0.00342
416.00,0.00366
419.00,0.00354
422.00,0.00378
425.00,0.00378
428.00,0.00366
431.00,0.00354
434.00,0.00366
437.00,0.00366
440.00,0.00378
443.00,0.00366
446.00,0.00366
449.00,0.00366
452.00,0.00378
455.00,0.00378
458.00,0.00391
461.00,0.00391
464.00,0.00403
467.00,0.00415
470.00,0.00415
473.00,0.00427
476.00,0.00464
479.00,0.00476
482.00,0.00476
485.00,0.00476
488.00,0.00464
491.00,0.00464
494.00,0.00476
497.00,0.00476
500.00,0.00525
503.00,0.00549
506.00,0.00562
509.00,0.00586
512.00,0.00610
515.00,0.00684
518.00,0.00769
521.00,0.00891
524.00,0.01038
527.00,0.01123
530.00,0.01172
533.00,0.01208
536.00,0.01282
539.00,0.01343
542.00,0.01416
545.00,0.01453
548.00,0.01489
551.00,0.01550
554.00,0.01611
557.00,0.01709
560.00,0.01868
563.00,0.02124
566.00,0.02466
569.00,0.02881
572.00,0.03369
575.00,0.03918
578.00,0.04480
581.00,0.05103
584.00,0.05688
587.00,0.06226
590.00,0.06665
593.00,0.06934
596.00,0.07092
599.00,0.07239
602.00,0.07422
605.00,0.07703
608.00,0.08105
611.00,0.08594
614.00,0.09131
617.00,0.09656
620.00,0.10156
623.00,0.10547
626.00,0.10767
629.00,0.10779
632.00,0.10645
635.00,0.10437
638.00,0.10229
641.00,0.10034
644.00,0.09814
647.00,0.09583
650.00,0.09363
653.00,0.09204
656.00,0.09167
659.00,0.09167
662.00,0.09082
665.00,0.08838
668.00,0.08337
671.00,0.07581
674.00,0.06592
677.00,0.05542
680.00,0.04529
683.00,0.03625
686.00,0.02905
689.00,0.02344
692.00,0.01904
695.00,0.01550
698.00,0.01294
701.00,0.01074
704.00,0.00928
707.00,0.00806
710.00,0.00732
713.00,0.00671
716.00,0.00635
719.00,0.00610
722.00,0.00598
725.00,0.00574
728.00,0.00574
731.00,0.00574
734.00,0.00562
737.00,0.00562
740.00,0.00562
743.00,0.00574
746.00,0.00574
749.00,0.00574
752.00,0.00586
755.00,0.00574
758.00,0.00586
761.00,0.00586
764.00,0.00598
767.00,0.00598
770.00,0.00598
773.00,0.00598
776.00,0.00598
779.00,0.00610
782.00,0.00610
785.00,0.00610
788.00,0.00623
791.00,0.00635
794.00,0.00647
797.00,0.00647
800.00,0.00671
803.00,0.00671
806.00,0.00684
809.00,0.00684
812.00,0.00684
815.00,0.00696
818.00,0.00696
821.00,0.00708
824.00,0.00732
827.00,0.00745
830.00,0.00769
833.00,0.00781
836.00,0.00806
839.00,0.00818
842.00,0.00830
845.00,0.00842
848.00,0.00879
851.00,0.00916
854.00,0.00928
857.00,0.00952
860.00,0.00964
863.00,0.00989
866.00,0.01025
869.00,0.01050
872.00,0.01086
875.00,0.01111
878.00,0.01147
881.00,0.01172
884.00,0.01184
887.00,0.01196
890.00,0.01208
893.00,0.01257
896.00,0.01270
899.00,0.01270
900.00,0.01282

File: data_set6.txt
"134340 - C:\Documents and Settings\User\My Documents\Homogeneous-catalysis\Allen, Lucy\lka1079.014.spc"
"Wavelength nm.","Abs."
200.00,0.58020
203.00,0.90344
206.00,0.60120
209.00,0.51172
212.00,0.57593
215.00,0.55176
218.00,0.42639
221.00,0.31934
224.00,0.50635
227.00,0.51477
230.00,0.49536
233.00,0.44226
236.00,0.37585
239.00,0.31482
242.00,0.26758
245.00,0.23108
248.00,0.19836
251.00,0.16675
254.00,0.13831
257.00,0.11499
260.00,0.09839
263.00,0.08691
266.00,0.07764
269.00,0.06958
272.00,0.06018
275.00,0.05029
278.00,0.04004
281.00,0.03040
284.00,0.02136
287.00,0.01367
290.00,0.00647
293.00,0.00024
296.00,-0.00500
299.00,0.02014
302.00,0.03821
305.00,0.03394
308.00,0.03027
311.00,0.02673
314.00,0.02380
317.00,0.02100
320.00,0.01941
323.00,0.01794
326.00,0.01672
329.00,0.01575
332.00,0.01465
335.00,0.01343
338.00,0.01233
341.00,0.01025
344.00,0.00842
347.00,0.00732
350.00,0.00623
353.00,0.00513
356.00,0.00427
359.00,0.00342
362.00,0.00293
365.00,0.00256
368.00,0.00220
371.00,0.00183
374.00,0.00146
377.00,0.00110
380.00,0.00085
383.00,0.00049
386.00,0.00037
389.00,0.00012
392.00,-0.00012
395.00,-0.00012
398.00,-0.00024
401.00,-0.00024
404.00,-0.00024
407.00,-0.00037
410.00,-0.00061
413.00,-0.00049
416.00,-0.00049
419.00,-0.00073
422.00,-0.00073
425.00,-0.00073
428.00,-0.00073
431.00,-0.00073
434.00,-0.00085
437.00,-0.00073
440.00,-0.00073
443.00,-0.00073
446.00,-0.00073
449.00,-0.00073
452.00,-0.00073
455.00,-0.00061
458.00,-0.00061
461.00,-0.00061
464.00,-0.00061
467.00,-0.00061
470.00,-0.00073
473.00,-0.00073
476.00,-0.00073
479.00,-0.00061
482.00,-0.00073
485.00,-0.00085
488.00,-0.00085
491.00,-0.00085
494.00,-0.00085
497.00,-0.00085
500.00,-0.00073
503.00,-0.00061
506.00,-0.00073
509.00,-0.00073
512.00,-0.00061
515.00,-0.00049
518.00,-0.00012
521.00,0.00049
524.00,0.00098
527.00,0.00122
530.00,0.00134
533.00,0.00146
536.00,0.00159
539.00,0.00183
542.00,0.00195
545.00,0.00195
548.00,0.00195
551.00,0.00220
554.00,0.00244
557.00,0.00256
560.00,0.00317
563.00,0.00403
566.00,0.00525
569.00,0.00696
572.00,0.00879
575.00,0.01086
578.00,0.01306
581.00,0.01526
584.00,0.01758
587.00,0.01965
590.00,0.02136
593.00,0.02234
596.00,0.02307
599.00,0.02356
602.00,0.02441
605.00,0.02551
608.00,0.02710
611.00,0.02881
614.00,0.03076
617.00,0.03271
620.00,0.03467
623.00,0.03613
626.00,0.03674
629.00,0.03687
632.00,0.03613
635.00,0.03516
638.00,0.03442
641.00,0.03357
644.00,0.03271
647.00,0.03162
650.00,0.03076
653.00,0.03003
656.00,0.02991
659.00,0.02979
662.00,0.02930
665.00,0.02832
668.00,0.02625
671.00,0.02332
674.00,0.01917
677.00,0.01489
680.00,0.01062
683.00,0.00684
686.00,0.00378
689.00,0.00159
692.00,-0.00037
695.00,-0.00171
698.00,-0.00281
701.00,-0.00378
704.00,-0.00452
707.00,-0.00488
710.00,-0.00525
713.00,-0.00549
716.00,-0.00549
719.00,-0.00574
722.00,-0.00586
725.00,-0.00586
728.00,-0.00586
731.00,-0.00574
734.00,-0.00562
737.00,-0.00549
740.00,-0.00537
743.00,-0.00537
746.00,-0.00525
749.00,-0.00525
752.00,-0.00525
755.00,-0.00525
758.00,-0.00513
761.00,-0.00513
764.00,-0.00500
767.00,-0.00500
770.00,-0.00500
773.00,-0.00500
776.00,-0.00500
779.00,-0.00500
782.00,-0.00488
785.00,-0.00476
788.00,-0.00476
791.00,-0.00476
794.00,-0.00464
797.00,-0.00464
800.00,-0.00464
803.00,-0.00464
806.00,-0.00464
809.00,-0.00464
812.00,-0.00464
815.00,-0.00464
818.00,-0.00464
821.00,-0.00452
824.00,-0.00452
827.00,-0.00452
830.00,-0.00439
833.00,-0.00439
836.00,-0.00427
839.00,-0.00427
842.00,-0.00427
845.00,-0.00427
848.00,-0.00391
851.00,-0.00366
854.00,-0.00366
857.00,-0.00366
860.00,-0.00354
863.00,-0.00330
866.00,-0.00317
869.00,-0.00293
872.00,-0.00293
875.00,-0.00269
878.00,-0.00256
881.00,-0.00244
884.00,-0.00244
887.00,-0.00244
890.00,-0.00244
893.00,-0.00232
896.00,-0.00220
899.00,-0.00220
900.00,-0.00220

File: data_set8.txt
"141612 - C:\Documents and Settings\User\My Documents\Homogeneous-catalysis\Allen, Lucy\lka1079.017.spc"
"Wavelength nm.","Abs."
200.00,-0.07275
203.00,-0.07336
206.00,-0.10022
209.00,-0.02771
212.00,-0.10303
215.00,-0.07947
218.00,-0.13635
221.00,0.01721
224.00,0.11841
227.00,0.10974
230.00,0.09558
233.00,0.08069
236.00,0.06543
239.00,0.05164
242.00,0.04028
245.00,0.03088
248.00,0.02271
251.00,0.01501
254.00,0.00806
257.00,0.00256
260.00,-0.00159
263.00,-0.00464
266.00,-0.00745
269.00,-0.00964
272.00,-0.01221
275.00,-0.01501
278.00,-0.01770
281.00,-0.02075
284.00,-0.02368
287.00,-0.02661
290.00,-0.02930
293.00,-0.03162
296.00,-0.03345
299.00,-0.00525
302.00,0.01526
305.00,0.01379
308.00,0.01233
311.00,0.01111
314.00,0.01013
317.00,0.00916
320.00,0.00854
323.00,0.00781
326.00,0.00745
329.00,0.00696
332.00,0.00635
335.00,0.00598
338.00,0.00562
341.00,0.00415
344.00,0.00317
347.00,0.00269
350.00,0.00256
353.00,0.00208
356.00,0.00183
359.00,0.00146
362.00,0.00122
365.00,0.00098
368.00,0.00098
371.00,0.00049
374.00,0.00037
377.00,-0.00012
380.00,-0.00024
383.00,-0.00037
386.00,-0.00073
389.00,-0.00085
392.00,-0.00085
395.00,-0.00098
398.00,-0.00098
401.00,-0.00098
404.00,-0.00110
407.00,-0.00110
410.00,-0.00110
413.00,-0.00110
416.00,-0.00098
419.00,-0.00110
422.00,-0.00110
425.00,-0.00110
428.00,-0.00110
431.00,-0.00110
434.00,-0.00110
437.00,-0.00098
440.00,-0.00085
443.00,-0.00085
446.00,-0.00085
449.00,-0.00085
452.00,-0.00073
455.00,-0.00073
458.00,-0.00073
461.00,-0.00073
464.00,-0.00073
467.00,-0.00073
470.00,-0.00073
473.00,-0.00085
476.00,-0.00073
479.00,-0.00073
482.00,-0.00085
485.00,-0.00085
488.00,-0.00098
491.00,-0.00098
494.00,-0.00098
497.00,-0.00098
500.00,-0.00098
503.00,-0.00098
506.00,-0.00098
509.00,-0.00110
512.00,-0.00110
515.00,-0.00110
518.00,-0.00110
521.00,-0.00098
524.00,-0.00098
527.00,-0.00098
530.00,-0.00098
533.00,-0.00110
536.00,-0.00134
539.00,-0.00110
542.00,-0.00122
545.00,-0.00134
548.00,-0.00146
551.00,-0.00146
554.00,-0.00159
557.00,-0.00159
560.00,-0.00159
563.00,-0.00146
566.00,-0.00110
569.00,-0.00098
572.00,-0.00073
575.00,-0.00024
578.00,0.00012
581.00,0.00073
584.00,0.00098
587.00,0.00146
590.00,0.00183
593.00,0.00195
596.00,0.00220
599.00,0.00232
602.00,0.00244
605.00,0.00269
608.00,0.00305
611.00,0.00330
614.00,0.00354
617.00,0.00378
620.00,0.00403
623.00,0.00439
626.00,0.00452
629.00,0.00464
632.00,0.00452
635.00,0.00427
638.00,0.00415
641.00,0.00415
644.00,0.00391
647.00,0.00378
650.00,0.00342
653.00,0.00330
656.00,0.00317
659.00,0.00281
662.00,0.00269
665.00,0.00232
668.00,0.00183
671.00,0.00122
674.00,0.00037
677.00,-0.00061
680.00,-0.00134
683.00,-0.00220
686.00,-0.00269
689.00,-0.00317
692.00,-0.00366
695.00,-0.00391
698.00,-0.00415
701.00,-0.00439
704.00,-0.00452
707.00,-0.00452
710.00,-0.00452
713.00,-0.00452
716.00,-0.00452
719.00,-0.00452
722.00,-0.00452
725.00,-0.00439
728.00,-0.00452
731.00,-0.00439
734.00,-0.00439
737.00,-0.00439
740.00,-0.00439
743.00,-0.00439
746.00,-0.00427
749.00,-0.00427
752.00,-0.00403
755.00,-0.00403
758.00,-0.00403
761.00,-0.00403
764.00,-0.00391
767.00,-0.00391
770.00,-0.00391
773.00,-0.00391
776.00,-0.00391
779.00,-0.00391
782.00,-0.00378
785.00,-0.00378
788.00,-0.00366
791.00,-0.00366
794.00,-0.00366
797.00,-0.00366
800.00,-0.00366
803.00,-0.00366
806.00,-0.00366
809.00,-0.00366
812.00,-0.00366
815.00,-0.00366
818.00,-0.00366
821.00,-0.00366
824.00,-0.00366
827.00,-0.00366
830.00,-0.00354
833.00,-0.00342
836.00,-0.00330
839.00,-0.00330
842.00,-0.00330
845.00,-0.00330
848.00,-0.00330
851.00,-0.00293
854.00,-0.00305
857.00,-0.00317
860.00,-0.00305
863.00,-0.00305
866.00,-0.00293
869.00,-0.00281
872.00,-0.00269
875.00,-0.00256
878.00,-0.00256
881.00,-0.00244
884.00,-0.00244
887.00,-0.00256
890.00,-0.00256
893.00,-0.00269
896.00,-0.00256
899.00,-0.00256
900.00,-0.00256