Folder: PyChem_website/docs/batch

Note: README.md
# PyChem Website

This is a small introductory website meant to get people up and running using
Python for scientific problems (specifically, chemistry related).

You can build this site yourself if you have Sphinx installed; however, it is
also being hosted on my personal site http://rcnelson.com

File: data_set1.txt
"105005 - C:\Documents and Settings\User\My Documents\Homogeneous-catalysis\Allen, Lucy\lka1079.004.spc"
"Wavelength nm.","Abs."
200.00,0.05225
203.00,0.11316
206.00,-0.03015
209.00,-0.00854
212.00,0.00854
215.00,-0.01624
218.00,-0.02124
221.00,0.08032
224.00,0.80615
227.00,1.02161
230.00,0.96423
233.00,0.86145
236.00,0.74487
239.00,0.63538
242.00,0.55054
245.00,0.48047
248.00,0.41382
251.00,0.34814
254.00,0.28943
257.00,0.24097
260.00,0.20544
263.00,0.18005
266.00,0.16064
269.00,0.14233
272.00,0.12317
275.00,0.10400
278.00,0.08643
281.00,0.07117
284.00,0.05933
287.00,0.05029
290.00,0.04297
293.00,0.03674
296.00,0.03076
299.00,0.05457
302.00,0.07043
305.00,0.06360
308.00,0.05627
311.00,0.04968
314.00,0.04382
317.00,0.03870
320.00,0.03503
323.00,0.03247
326.00,0.03027
329.00,0.02869
332.00,0.02673
335.00,0.02490
338.00,0.02307
341.00,0.02075
344.00,0.01855
347.00,0.01648
350.00,0.01440
353.00,0.01257
356.00,0.01099
359.00,0.00977
362.00,0.00891
365.00,0.00830
368.00,0.00781
371.00,0.00757
374.00,0.00745
377.00,0.00745
380.00,0.00708
383.00,0.00696
386.00,0.00696
389.00,0.00696
392.00,0.00696
395.00,0.00696
398.00,0.00696
401.00,0.00696
404.00,0.00696
407.00,0.00696
410.00,0.00696
413.00,0.00708
416.00,0.00720
419.00,0.00708
422.00,0.00720
425.00,0.00720
428.00,0.00708
431.00,0.00708
434.00,0.00732
437.00,0.00732
440.00,0.00732
443.00,0.00732
446.00,0.00745
449.00,0.00745
452.00,0.00745
455.00,0.00745
458.00,0.00757
461.00,0.00757
464.00,0.00769
467.00,0.00769
470.00,0.00781
473.00,0.00806
476.00,0.00818
479.00,0.00830
482.00,0.00830
485.00,0.00830
488.00,0.00830
491.00,0.00830
494.00,0.00842
497.00,0.00842
500.00,0.00879
503.00,0.00916
506.00,0.00940
509.00,0.00964
512.00,0.01001
515.00,0.01062
518.00,0.01147
521.00,0.01270
524.00,0.01404
527.00,0.01501
530.00,0.01563
533.00,0.01611
536.00,0.01685
539.00,0.01770
542.00,0.01831
545.00,0.01892
548.00,0.01953
551.00,0.02014
554.00,0.02087
557.00,0.02185
560.00,0.02356
563.00,0.02612
566.00,0.02954
569.00,0.03369
572.00,0.03833
575.00,0.04333
578.00,0.04871
581.00,0.05432
584.00,0.05969
587.00,0.06482
590.00,0.06909
593.00,0.07190
596.00,0.07349
599.00,0.07483
602.00,0.07654
605.00,0.07922
608.00,0.08289
611.00,0.08728
614.00,0.09204
617.00,0.09668
620.00,0.10120
623.00,0.10510
626.00,0.10718
629.00,0.10754
632.00,0.10632
635.00,0.10437
638.00,0.10242
641.00,0.10059
644.00,0.09863
647.00,0.09607
650.00,0.09363
653.00,0.09192
656.00,0.09119
659.00,0.09070
662.00,0.08972
665.00,0.08691
668.00,0.08203
671.00,0.07458
674.00,0.06506
677.00,0.05481
680.00,0.04517
683.00,0.03662
686.00,0.02966
689.00,0.02441
692.00,0.02002
695.00,0.01660
698.00,0.01428
701.00,0.01208
704.00,0.01074
707.00,0.00964
710.00,0.00879
713.00,0.00818
716.00,0.00793
719.00,0.00769
722.00,0.00757
725.00,0.00745
728.00,0.00745
731.00,0.00745
734.00,0.00732
737.00,0.00732
740.00,0.00732
743.00,0.00732
746.00,0.00745
749.00,0.00745
752.00,0.00745
755.00,0.00745
758.00,0.00745
761.00,0.00757
764.00,0.00757
767.00,0.00757
770.00,0.00769
773.00,0.00769
776.00,0.00769
779.00,0.00793
782.00,0.00806
785.00,0.00818
788.00,0.00830
791.00,0.00830
794.00,0.00842
797.00,0.00854
800.00,0.00879
803.00,0.00879
806.00,0.00891
809.00,0.00891
812.00,0.00891
815.00,0.00903
818.00,0.00903
821.00,0.00928
824.00,0.00952
827.00,0.00977
830.00,0.00989
833.00,0.01001
836.00,0.01038
839.00,0.01050
842.00,0.01062
845.00,0.01099
848.00,0.01111
851.00,0.01160
854.00,0.01172
857.00,0.01184
860.00,0.01208
863.00,0.01245
866.00,0.01270
869.00,0.01306
872.00,0.01331
875.00,0.01367
878.00,0.01404
881.00,0.01416
884.00,0.01453
887.00,0.01465
890.00,0.01465
893.00,0.01489
896.00,0.01526
899.00,0.01538
900.00,0.01550

File: data_set4.txt
"130801 - C:\Documents and Settings\User\My Documents\Homogeneous-catalysis\Allen, Lucy\lka1079.010.spc"
"Wavelength nm.","Abs."
200.00,0.36560
203.00,0.22754
206.00,0.26794
209.00,0.26660
212.00,0.31311
215.00,0.24231
218.00,0.14807
221.00,0.28955
224.00,0.88757
227.00,0.93555
230.00,0.87854
233.00,0.78308
236.00,0.67078
239.00,0.56787
242.00,0.48889
245.00,0.42725
248.00,0.36816
251.00,0.30908
254.00,0.25720
257.00,0.21521
260.00,0.18494
263.00,0.16455
266.00,0.14880
269.00,0.13489
272.00,0.11816
275.00,0.10046
278.00,0.08374
281.00,0.06873
284.00,0.05603
287.00,0.04517
290.00,0.03589
293.00,0.02820
296.00,0.02100
299.00,0.04431
302.00,0.05981
305.00,0.05347
308.00,0.04773
311.00,0.04175
314.00,0.03650
317.00,0.03198
320.00,0.02893
323.00,0.02661
326.00,0.02490
329.00,0.02319
332.00,0.02161
335.00,0.01990
338.00,0.01819
341.00,0.01550
344.00,0.01306
347.00,0.01086
350.00,0.00916
353.00,0.00708
356.00,0.00549
359.00,0.00427
362.00,0.00330
365.00,0.00269
368.00,0.00232
371.00,0.00183
374.00,0.00171
377.00,0.00122
380.00,0.00098
383.00,0.00085
386.00,0.00061
389.00,0.00049
392.00,0.00049
395.00,0.00037
398.00,0.00037
401.00,0.00037
404.00,0.00037
407.00,0.00024
410.00,0.00012
413.00,0.00024
416.00,0.00049
419.00,0.00012
422.00,0.00012
425.00,0.00000
428.00,0.00000
431.00,0.00000
434.00,0.00000
437.00,0.00000
440.00,0.00000
443.00,-0.00012
446.00,0.00000
449.00,0.00012
452.00,0.00000
455.00,0.00012
458.00,0.00037
461.00,0.00037
464.00,0.00037
467.00,0.00037
470.00,0.00037
473.00,0.00037
476.00,0.00049
479.00,0.00049
482.00,0.00037
485.00,0.00000
488.00,0.00000
491.00,0.00000
494.00,0.00000
497.00,0.00012
500.00,0.00037
503.00,0.00073
506.00,0.00085
509.00,0.00098
512.00,0.00110
515.00,0.00171
518.00,0.00244
521.00,0.00354
524.00,0.00476
527.00,0.00549
530.00,0.00598
533.00,0.00623
536.00,0.00684
539.00,0.00732
542.00,0.00793
545.00,0.00818
548.00,0.00842
551.00,0.00891
554.00,0.00940
557.00,0.01013
560.00,0.01147
563.00,0.01367
566.00,0.01672
569.00,0.02039
572.00,0.02466
575.00,0.02930
578.00,0.03430
581.00,0.03967
584.00,0.04480
587.00,0.04944
590.00,0.05322
593.00,0.05566
596.00,0.05701
599.00,0.05823
602.00,0.05981
605.00,0.06226
608.00,0.06580
611.00,0.07019
614.00,0.07483
617.00,0.07935
620.00,0.08386
623.00,0.08752
626.00,0.08936
629.00,0.08960
632.00,0.08813
635.00,0.08618
638.00,0.08423
641.00,0.08252
644.00,0.08069
647.00,0.07849
650.00,0.07654
653.00,0.07532
656.00,0.07507
659.00,0.07483
662.00,0.07422
665.00,0.07202
668.00,0.06750
671.00,0.06079
674.00,0.05212
677.00,0.04272
680.00,0.03369
683.00,0.02588
686.00,0.01953
689.00,0.01477
692.00,0.01074
695.00,0.00769
698.00,0.00537
701.00,0.00354
704.00,0.00220
707.00,0.00134
710.00,0.00073
713.00,0.00012
716.00,-0.00012
719.00,-0.00037
722.00,-0.00061
725.00,-0.00073
728.00,-0.00085
731.00,-0.00073
734.00,-0.00085
737.00,-0.00085
740.00,-0.00073
743.00,-0.00073
746.00,-0.00073
749.00,-0.00073
752.00,-0.00073
755.00,-0.00073
758.00,-0.00073
761.00,-0.00073
764.00,-0.00061
767.00,-0.00061
770.00,-0.00049
773.00,-0.00037
776.00,-0.00024
779.00,-0.00024
782.00,-0.00012
785.00,-0.00012
788.00,0.00000
791.00,0.00024
794.00,0.00037
797.00,0.00037
800.00,0.00049
803.00,0.00049
806.00,0.00061
809.00,0.00061
812.00,0.00085
815.00,0.00085
818.00,0.00098
821.00,0.00110
824.00,0.00110
827.00,0.00122
830.00,0.00159
833.00,0.00171
836.00,0.00183
839.00,0.00183
842.00,0.00195
845.00,0.00232
848.00,0.00256
851.00,0.00293
854.00,0.00293
857.00,0.00317
860.00,0.00342
863.00,0.00354
866.00,0.00391
869.00,0.00415
872.00,0.00439
875.00,0.00464
878.00,0.00488
881.00,0.00525
884.00,0.00537
887.00,0.00537
890.00,0.00562
893.00,0.00586
896.00,0.00598
899.00,0.00623
900.00,0.00623

File: data_set5.txt
"132013 - C:\Documents and Settings\User\My Documents\Homogeneous-catalysis\Allen, Lucy\lka1079.012.spc"
"Wavelength nm.","Abs."
200.00,0.27917
203.00,0.11597
206.00,0.15466
209.00,0.20227
212.00,0.09534
215.00,0.10999
218.00,0.13733
221.00,0.23792
224.00,0.71387
227.00,0.73157
230.00,0.67444
233.00,0.59900
236.00,0.51221
239.00,0.43091
242.00,0.36829
245.00,0.32068
248.00,0.27588
251.00,0.23071
254.00,0.18945
257.00,0.15637
260.00,0.13367
263.00,0.11792
266.00,0.10596
269.00,0.09509
272.00,0.08240
275.00,0.06873
278.00,0.05591
281.00,0.04370
284.00,0.03333
287.00,0.02454
290.00,0.01672
293.00,0.01001
296.00,0.00415
299.00,0.02844
302.00,0.04517
305.00,0.04004
308.00,0.03564
311.00,0.03101
314.00,0.02698
317.00,0.02332
320.00,0.02087
323.00,0.01904
326.00,0.01746
329.00,0.01624
332.00,0.01489
335.00,0.01367
338.00,0.01196
341.00,0.00977
344.00,0.00769
347.00,0.00598
350.00,0.00464
353.00,0.00305
356.00,0.00171
359.00,0.00073
362.00,0.00000
365.00,-0.00049
368.00,-0.00085
371.00,-0.00122
374.00,-0.00146
377.00,-0.00171
380.00,-0.00195
383.00,-0.00220
386.00,-0.00232
389.00,-0.00244
392.00,-0.00256
395.00,-0.00256
398.00,-0.00256
401.00,-0.00256
404.00,-0.00256
407.00,-0.00256
410.00,-0.00269
413.00,-0.00256
416.00,-0.00244
419.00,-0.00256
422.00,-0.00256
425.00,-0.00256
428.00,-0.00256
431.00,-0.00256
434.00,-0.00256
437.00,-0.00256
440.00,-0.00256
443.00,-0.00256
446.00,-0.00244
449.00,-0.00244
452.00,-0.00244
455.00,-0.00232
458.00,-0.00232
461.00,-0.00220
464.00,-0.00220
467.00,-0.00220
470.00,-0.00220
473.00,-0.00220
476.00,-0.00220
479.00,-0.00208
482.00,-0.00220
485.00,-0.00232
488.00,-0.00244
491.00,-0.00232
494.00,-0.00232
497.00,-0.00232
500.00,-0.00220
503.00,-0.00183
506.00,-0.00183
509.00,-0.00171
512.00,-0.00159
515.00,-0.00110
518.00,-0.00061
521.00,0.00037
524.00,0.00122
527.00,0.00183
530.00,0.00208
533.00,0.00244
536.00,0.00269
539.00,0.00317
542.00,0.00354
545.00,0.00391
548.00,0.00403
551.00,0.00439
554.00,0.00476
557.00,0.00513
560.00,0.00623
563.00,0.00793
566.00,0.01025
569.00,0.01294
572.00,0.01624
575.00,0.01978
578.00,0.02368
581.00,0.02783
584.00,0.03149
587.00,0.03516
590.00,0.03809
593.00,0.03979
596.00,0.04089
599.00,0.04175
602.00,0.04309
605.00,0.04504
608.00,0.04773
611.00,0.05103
614.00,0.05444
617.00,0.05786
620.00,0.06128
623.00,0.06396
626.00,0.06531
629.00,0.06531
632.00,0.06445
635.00,0.06287
638.00,0.06140
641.00,0.06018
644.00,0.05872
647.00,0.05713
650.00,0.05554
653.00,0.05457
656.00,0.05432
659.00,0.05432
662.00,0.05371
665.00,0.05200
668.00,0.04858
671.00,0.04321
674.00,0.03674
677.00,0.02954
680.00,0.02246
683.00,0.01636
686.00,0.01160
689.00,0.00781
692.00,0.00452
695.00,0.00232
698.00,0.00061
701.00,-0.00085
704.00,-0.00195
707.00,-0.00269
710.00,-0.00317
713.00,-0.00354
716.00,-0.00378
719.00,-0.00378
722.00,-0.00391
725.00,-0.00391
728.00,-0.00391
731.00,-0.00391
734.00,-0.00403
737.00,-0.00439
740.00,-0.00452
743.00,-0.00452
746.00,-0.00452
749.00,-0.00452
752.00,-0.00439
755.00,-0.00439
758.00,-0.00415
761.00,-0.00391
764.00,-0.00391
767.00,-0.00391
770.00,-0.00391
773.00,-0.00391
776.00,-0.00378
779.00,-0.00378
782.00,-0.00366
785.00,-0.00366
788.00,-0.00330
791.00,-0.00330
794.00,-0.00317
797.00,-0.00317
800.00,-0.00317
803.00,-0.00317
806.00,-0.00305
809.00,-0.00305
812.00,-0.00305
815.00,-0.00293
818.00,-0.00293
821.00,-0.00293
824.00,-0.00281
827.00,-0.00281
830.00,-0.00256
833.00,-0.00244
836.00,-0.00244
839.00,-0.00232
842.00,-0.00220
845.00,-0.00208
848.00,-0.00183
851.00,-0.00159
854.00,-0.00171
857.00,-0.00183
860.00,-0.00171
863.00,-0.00146
866.00,-0.00098
869.00,-0.00073
872.00,-0.00049
875.00,-0.00012
878.00,0.00000
881.00,0.00024
884.00,0.00037
887.00,0.00037
890.00,0.00049
893.00,0.00073
896.00,0.00085
899.00,0.00085
900.00,0.00085

File: data_set7.txt
"135657 - C:\Documents and Settings\User\My Documents\Homogeneous-catalysis\Allen, Lucy\lka1079.015.spc"
"Wavelength nm.","Abs."
200.00,0.22815
203.00,0.06567
206.00,0.03381
209.00,0.13928
212.00,0.02490
215.00,0.07446
218.00,0.00439
221.00,0.14465
224.00,0.30994
227.00,0.29736
230.00,0.27368
233.00,0.24121
236.00,0.20483
239.00,0.17114
242.00,0.14441
245.00,0.12329
248.00,0.10400
251.00,0.08496
254.00,0.06750
257.00,0.05420
260.00,0.04419
263.00,0.03662
266.00,0.03064
269.00,0.02527
272.00,0.01929
275.00,0.01306
278.00,0.00671
281.00,0.00073
284.00,-0.00500
287.00,-0.01025
290.00,-0.01514
293.00,-0.01929
296.00,-0.02258
299.00,0.00403
302.00,0.02319
305.00,0.02063
308.00,0.01807
311.00,0.01575
314.00,0.01367
317.00,0.01196
320.00,0.01086
323.00,0.00989
326.00,0.00891
329.00,0.00818
332.00,0.00745
335.00,0.00659
338.00,0.00586
341.00,0.00439
344.00,0.00281
347.00,0.00195
350.00,0.00134
353.00,0.00061
356.00,-0.00012
359.00,-0.00061
362.00,-0.00098
365.00,-0.00134
368.00,-0.00159
371.00,-0.00183
374.00,-0.00208
377.00,-0.00232
380.00,-0.00269
383.00,-0.00293
386.00,-0.00305
389.00,-0.00317
392.00,-0.00330
395.00,-0.00330
398.00,-0.00354
401.00,-0.00354
404.00,-0.00354
407.00,-0.00366
410.00,-0.00366
413.00,-0.00366
416.00,-0.00342
419.00,-0.00366
422.00,-0.00354
425.00,-0.00354
428.00,-0.00354
431.00,-0.00354
434.00,-0.00330
437.00,-0.00330
440.00,-0.00317
443.00,-0.00330
446.00,-0.00317
449.00,-0.00305
452.00,-0.00305
455.00,-0.00293
458.00,-0.00293
461.00,-0.00293
464.00,-0.00293
467.00,-0.00305
470.00,-0.00305
473.00,-0.00305
476.00,-0.00317
479.00,-0.00317
482.00,-0.00317
485.00,-0.00330
488.00,-0.00342
491.00,-0.00342
494.00,-0.00354
497.00,-0.00354
500.00,-0.00354
503.00,-0.00330
506.00,-0.00354
509.00,-0.00354
512.00,-0.00366
515.00,-0.00354
518.00,-0.00330
521.00,-0.00330
524.00,-0.00293
527.00,-0.00293
530.00,-0.00293
533.00,-0.00293
536.00,-0.00293
539.00,-0.00281
542.00,-0.00269
545.00,-0.00281
548.00,-0.00269
551.00,-0.00256
554.00,-0.00244
557.00,-0.00244
560.00,-0.00220
563.00,-0.00159
566.00,-0.00085
569.00,0.00012
572.00,0.00134
575.00,0.00244
578.00,0.00378
581.00,0.00525
584.00,0.00659
587.00,0.00781
590.00,0.00891
593.00,0.00952
596.00,0.00989
599.00,0.01038
602.00,0.01099
605.00,0.01160
608.00,0.01257
611.00,0.01367
614.00,0.01477
617.00,0.01587
620.00,0.01685
623.00,0.01770
626.00,0.01819
629.00,0.01831
632.00,0.01794
635.00,0.01758
638.00,0.01709
641.00,0.01685
644.00,0.01636
647.00,0.01587
650.00,0.01514
653.00,0.01465
656.00,0.01440
659.00,0.01404
662.00,0.01355
665.00,0.01282
668.00,0.01160
671.00,0.00964
674.00,0.00732
677.00,0.00476
680.00,0.00220
683.00,0.00000
686.00,-0.00195
689.00,-0.00317
692.00,-0.00439
695.00,-0.00525
698.00,-0.00598
701.00,-0.00659
704.00,-0.00684
707.00,-0.00720
710.00,-0.00745
713.00,-0.00745
716.00,-0.00757
719.00,-0.00769
722.00,-0.00781
725.00,-0.00793
728.00,-0.00793
731.00,-0.00793
734.00,-0.00806
737.00,-0.00806
740.00,-0.00806
743.00,-0.00806
746.00,-0.00793
749.00,-0.00793
752.00,-0.00757
755.00,-0.00757
758.00,-0.00757
761.00,-0.00757
764.00,-0.00757
767.00,-0.00757
770.00,-0.00781
773.00,-0.00781
776.00,-0.00781
779.00,-0.00757
782.00,-0.00757
785.00,-0.00745
788.00,-0.00732
791.00,-0.00732
794.00,-0.00732
797.00,-0.00720
800.00,-0.00720
803.00,-0.00720
806.00,-0.00720
809.00,-0.00732
812.00,-0.00732
815.00,-0.00732
818.00,-0.00732
821.00,-0.00720
824.00,-0.00720
827.00,-0.00720
830.00,-0.00708
833.00,-0.00708
836.00,-0.00708
839.00,-0.00708
842.00,-0.00684
845.00,-0.00684
848.00,-0.00671
851.00,-0.00659
854.00,-0.00659
857.00,-0.00659
860.00,-0.00647
863.00,-0.00647
866.00,-0.00623
869.00,-0.00598
872.00,-0.00598
875.00,-0.00586
878.00,-0.00574
881.00,-0.00574
884.00,-0.00574
887.00,-0.00574
890.00,-0.00562
893.00,-0.00549
896.00,-0.00549
899.00,-0.00549
900.00,-0.00549